Folder: TSF-Raman-Recycling/Hardware

File: styrofoam_newsetup.csv
Wavelength,Wavenumber,Intensity
251.839,20910.9,0.423168
255.604,20326,0.330969
259.369,19758.1,0.0559496
263.134,19206.4,0.153664
266.899,18670.3,0.12766
270.665,18149.1,0.146572
274.43,17642.2,0.206462
278.195,17149,0.116627
281.96,16669,0.190701
285.725,16201.7,0.3026
289.49,15746.5,0.360914
293.255,15303,0.196217
297.021,14870.7,0.385343
300.786,14449.3,0.330181
304.551,14038.2,0.434988
308.316,13637.3,0.176517
312.081,13245.9,0.335697
315.846,12864,0.185973
319.612,12491,0.0
323.377,12126.7,0.216706
327.142,11770.8,0.243499
330.907,11423,0.452325
334.672,11083,0.353034
338.437,10750.6,0.256107
342.202,10425.5,0.0386131
345.968,10107.5,0.260835
349.733,9796.27,0.189125
353.498,9491.72,0.156028
357.263,9193.59,0.359338
361.028,8901.68,0.555556
364.793,8615.79,0.133964
368.558,8335.75,0.138692
372.324,8061.36,0.349882
376.089,7792.48,0.513002
379.854,7528.92,0.394011
383.619,7270.53,0.281324
387.384,7017.17,0.315209
391.149,6768.69,0.450749
394.914,6524.94,0.0567376
398.68,6285.8,0.156816
402.445,6051.14,0.144996
406.21,5820.82,0.35067
409.975,5594.73,0.00394011
413.74,5372.76,0.425532
417.505,5154.79,0.121355
421.271,4940.72,0.433412
425.036,4730.44,0.215918
428.801,4523.86,0.28684
432.566,4320.87,0.34279
436.331,4121.38,0.518519
440.096,3925.31,0.208038
443.861,3732.56,0.293932
447.627,3543.06,0.314421
451.392,3356.71,0.401103
455.157,3173.45,0.0
458.922,2993.2,0.250591
462.687,2815.88,0.407407
466.452,2641.43,0.0661939
470.217,2469.76,0.0118203
473.983,2300.83,0.180457
477.748,2134.55,0.2829
481.513,1970.88,0.423956
485.278,1809.75,0.171789
489.043,1651.1,0.22695
492.808,1494.87,0.174941
496.574,1341.01,0.200946
500.339,1189.47,0.0
504.104,1040.19,0.165485
507.869,893.126,0.0236407
511.634,748.225,0.279748
515.399,605.441,0.124507
519.164,464.729,0.284476
522.93,326.042,0.0567376
526.695,189.339,0.172577
530.46,54.5756,0.196217
534.225,-78.2878,0.0
537.99,-209.292,0.0323089
541.755,-338.474,0.263987
545.52,-465.874,0.122931
549.286,-591.527,0.304177
553.051,-715.469,0.243499
556.816,-837.735,0.208826
560.581,-958.359,0.145784
564.346,-1077.37,0.126872
568.111,-1194.81,0.107959
571.876,-1310.7,0.508274
575.642,-1425.07,0.0
579.407,-1537.96,0.0929866
583.172,-1649.39,0.0204886
586.937,-1759.39,0.369582
590.702,-1867.99,0.0181245
594.467,-1975.21,0.485422
598.233,-2081.08,0.402679
601.998,-2185.63,0.233255
605.763,-2288.88,0.0764381
609.528,-2390.85,0.109535
613.293,-2491.58,0.300236
617.058,-2591.07,0.321513
620.823,-2689.35,0.677699
624.589,-2786.45,1.66509
628.354,-2882.39,0.234043
632.119,-2977.18,0.274232
635.884,-3070.85,0.124507
639.649,-3163.42,0.230102
643.414,-3254.91,0.201734
647.179,-3345.33,0.3026
650.945,-3434.7,0.0
654.71,-3523.05,0.400315
658.475,-3610.38,0.0110323
662.24,-3696.73,0.177305
666.005,-3782.09,0.152876
669.77,-3866.5,0.119779
673.536,-3949.97,0.126084
677.301,-4032.5,0.214342
681.066,-4114.12,0.185185
684.831,-4194.85,0.250591
688.596,-4274.69,0.0772262
692.361,-4353.67,0.353034
696.126,-4431.79,0.196217
699.892,-4509.06,0.070134
703.657,-4585.52,0.0764381
707.422,-4661.16,0.13554
711.187,-4735.99,0.0
714.952,-4810.04,0.176517
718.717,-4883.32,0.0961387
722.482,-4955.83,0.185973
726.248,-5027.58,0.342002
730.013,-5098.6,0.282112
733.778,-5168.89,0.349094
737.543,-5238.46,0.144996
741.308,-5307.33,0.0977147
745.073,-5375.49,0.0488574
748.838,-5442.98,0.0
752.604,-5509.79,0.474389
756.369,-5575.93,0.0874704
760.134,-5641.42,0.146572
763.899,-5706.26,0.546099
767.664,-5770.46,0.327029
771.429,-5834.04,0.0
775.195,-5897,0.648542
778.96,-5959.36,0.794326
782.725,-6021.11,0.523247
786.49,-6082.27,0.663515
790.255,-6142.85,1.47518
794.02,-6202.86,1.99448
797.785,-6262.29,3.19464
801.551,-6321.17,10.1363
805.316,-6379.5,27.3712
809.081,-6437.29,27.5579
812.846,-6494.54,29.866
816.611,-6551.26,7.81797
820.376,-6607.46,5.37273
824.141,-6663.15,2.2435
827.907,-6718.34,2.01261
831.672,-6773.02,1.26872
835.437,-6827.21,0.236407
839.202,-6880.91,0.466509
842.967,-6934.13,0.540583
846.732,-6986.89,0.118991
850.497,-7039.17,0.546099
854.263,-7090.99,0.51379
858.028,-7142.36,0.0732861
861.793,-7193.28,0.179669
865.558,-7243.75,0.247439
869.323,-7293.79,0.22695
873.088,-7343.4,0.144996
876.854,-7392.58,0.210402
880.619,-7441.34,0.21119
884.384,-7489.68,0.0252167
888.149,-7537.62,0.330969
891.914,-7585.15,0.0858944
895.679,-7632.28,0.0827423
899.444,-7679.02,0.241135
903.21,-7725.37,0.23089
906.975,-7771.33,0.168637
910.74,-7816.91,0.171001
914.505,-7862.12,0.101655
918.27,-7906.95,0.133964
922.035,-7951.42,0.0
925.8,-7995.53,0.0149724
929.566,-8039.28,0.109535
933.331,-8082.68,0.124507
937.096,-8125.73,0.0638298
940.861,-8168.43,0.0267928
944.626,-8210.79,0.0409771
948.391,-8252.82,0.0583136
952.157,-8294.52,0.0
955.922,-8335.88,0.0417652
959.687,-8376.93,0.0985028
963.452,-8417.65,0.178881
967.217,-8458.05,0.154452
970.982,-8498.14,0.0307329
974.747,-8537.92,0.144996
978.513,-8577.4,0.0788022
982.278,-8616.57,0.0496454
986.043,-8655.45,0.0677699
989.808,-8694.02,0.275808
993.573,-8732.31,0.182033
997.338,-8770.3,0.190701
1001.1,-8808.01,0.0212766
1004.87,-8845.44,0.261623
1008.63,-8882.59,0.182033
1012.4,-8919.46,0.0740741
1016.16,-8956.06,0.14736
1019.93,-8992.39,0.0740741
1023.69,-9028.45,0.231678
1027.46,-9064.25,0.0898345
1031.22,-9099.78,0.385343
1034.99,-9135.06,0.217494
1038.75,-9170.08,0.0929866
1042.52,-9204.85,0.0614657
1046.29,-9239.37,0.0330969
1050.05,-9273.64,0.189125
1053.82,-9307.67,0.140268
1057.58,-9341.45,0.124507
1061.35,-9374.99,0.483058
1065.11,-9408.3,4.80851
1068.88,-9441.37,1.27108
1072.64,-9474.21,0.0
1076.41,-9506.82,0.0
1080.17,-9539.2,0.0102443
1083.94,-9571.36,0.111111
1087.7,-9603.3,0.0512214
1091.47,-9635.01,0.153664
1095.23,-9666.51,0.176517
1099,-9697.79,0.160757
1102.76,-9728.86,0.0992908
1106.53,-9759.71,0.0929866
1110.29,-9790.36,0.104019
1114.06,-9820.8,0.0882585
1117.82,-9851.03,0.0244287
1121.59,-9881.06,0.0
1125.35,-9910.89,0.00472813
1129.12,-9940.53,0.114263
1132.88,-9969.96,0.0
1136.65,-9999.2,0.0756501
1140.41,-10028.2,0.129236
1144.18,-10057.1,0.267139
1147.94,-10085.8,0.172577
1151.71,-10114.2,0.0386131
1155.47,-10142.5,0.12766
1159.24,-10170.6,0.145784
1163,-10198.6,0.070922
1166.77,-10226.3,0.0638298
1170.54,-10253.9,0.269504
1174.3,-10281.3,0.27108
1178.07,-10308.5,0.0
1181.83,-10335.5,0.0165485
1185.6,-10362.4,0.183609
1189.36,-10389.1,0.110323
1193.13,-10415.6,0.0945626
1196.89,-10442,0.132388
1200.66,-10468.2,0.194641
1204.42,-10494.3,0.205674
1208.19,-10520.1,0.229314
1211.95,-10545.8,0.175729
1215.72,-10571.4,0.161545
1219.48,-10596.8,0.29472
1223.25,-10622,0.0
1227.01,-10647.1,0.0197006
1230.78,-10672,0.13554
1234.54,-10696.8,0.00866824
1238.31,-10721.5,0.200946
1242.07,-10745.9,0.140268
1245.84,-10770.3,0.034673
1249.6,-10794.5,0.14342
1253.37,-10818.5,0.231678
1257.13,-10842.4,0.0866824
1260.9,-10866.1,0.194641
1264.66,-10889.8,0.0512214
1268.43,-10913.2,0.236407
1272.19,-10936.6,0.123719
1275.96,-10959.8,0.260835
1279.72,-10982.8,0.00157604
1283.49,-11005.7,0.160757
1284.03,-11009,0.247439